{
  "resourceType": "Bundle",
  "id": "bundle-ecoli-001",
  "type": "collection",
  "entry": [
    {
      "resource": {
        "resourceType": "Patient",
        "id": "patient-12345",
        "identifier": [
          {
            "use": "usual",
            "type": {
              "coding": [
                {
                  "system": "http://terminology.hl7.org/CodeSystem/v2-0203",
                  "code": "MR"
                }
              ]
            },
            "value": "MRN12345678"
          }
        ],
        "name": [
          {
            "family": "Johnson",
            "given": ["Robert", "M"]
          }
        ],
        "gender": "male",
        "birthDate": "1980-12-15"
      }
    },
    {
      "resource": {
        "resourceType": "Specimen",
        "id": "specimen-urine-001",
        "identifier": [
          {
            "value": "SPEC001"
          }
        ],
        "type": {
          "coding": [
            {
              "system": "http://snomed.info/sct",
              "code": "122575003",
              "display": "Urine specimen"
            }
          ]
        },
        "subject": {
          "reference": "Patient/patient-12345"
        },
        "collection": {
          "collectedDateTime": "2024-03-15T14:00:00Z"
        }
      }
    },
    {
      "resource": {
        "resourceType": "Observation",
        "id": "organism-ecoli",
        "status": "final",
        "category": [
          {
            "coding": [
              {
                "system": "http://terminology.hl7.org/CodeSystem/observation-category",
                "code": "laboratory"
              }
            ]
          }
        ],
        "code": {
          "coding": [
            {
              "system": "http://loinc.org",
              "code": "634-6",
              "display": "Bacteria identified in Specimen by Culture"
            }
          ]
        },
        "subject": {
          "reference": "Patient/patient-12345"
        },
        "specimen": {
          "reference": "Specimen/specimen-urine-001"
        },
        "valueCodeableConcept": {
          "coding": [
            {
              "system": "http://snomed.info/sct",
              "code": "112283007",
              "display": "Escherichia coli"
            }
          ]
        }
      }
    },
    {
      "resource": {
        "resourceType": "Observation",
        "id": "ampicillin-mic",
        "status": "final",
        "category": [
          {
            "coding": [
              {
                "system": "http://terminology.hl7.org/CodeSystem/observation-category",
                "code": "laboratory"
              }
            ]
          }
        ],
        "code": {
          "coding": [
            {
              "system": "http://loinc.org",
              "code": "18864-9",
              "display": "Ampicillin [Susceptibility] by Minimum inhibitory concentration (MIC)"
            }
          ]
        },
        "subject": {
          "reference": "Patient/patient-12345"
        },
        "specimen": {
          "reference": "Specimen/specimen-urine-001"
        },
        "valueQuantity": {
          "value": 16,
          "unit": "mg/L"
        },
        "interpretation": [
          {
            "coding": [
              {
                "system": "http://terminology.hl7.org/CodeSystem/v3-ObservationInterpretation",
                "code": "R",
                "display": "Resistant"
              }
            ]
          }
        ]
      }
    }
  ]
}